aX,aY,aZ,gX,gY,gZ
0.067,0.904,2.018,70.435,-10.315,1.892
-0.045,1.269,2.240,83.191,-11.292,9.583
-0.276,1.609,2.364,94.849,-5.249,12.451
-0.564,2.000,2.359,111.023,2.625,7.874
-0.845,2.311,2.335,137.878,10.681,-2.197
-1.169,2.435,2.197,164.795,25.330,-19.775
-1.489,2.461,1.978,197.205,38.086,-41.077
-1.788,2.363,1.616,233.704,50.720,-66.345
-1.943,1.919,1.111,268.127,68.542,-107.483
-1.779,1.013,0.463,289.978,90.881,-170.532
-1.258,-0.104,-0.227,286.011,101.990,-240.906
-0.614,-1.026,-0.851,260.803,80.444,-298.950
-0.303,-1.312,-1.268,235.168,17.212,-334.412
-0.500,-1.241,-1.428,216.309,-59.570,-353.149
-0.651,-1.576,-1.675,227.112,-96.436,-352.539
-0.791,-2.185,-1.778,267.883,-58.594,-314.697
-0.709,-2.637,-1.852,302.673,30.884,-266.357
-0.370,-3.000,-1.794,300.659,106.750,-261.475
0.099,-3.398,-1.509,272.156,130.371,-294.250
0.648,-3.512,-0.999,242.432,130.554,-322.632
1.146,-3.305,-0.524,211.365,137.878,-307.251
1.595,-2.845,-0.408,166.321,160.095,-228.821
1.858,-2.247,-0.557,115.845,177.368,-112.427
1.833,-1.730,-0.707,70.923,163.757,-8.484
1.538,-1.414,-0.687,45.227,117.188,47.424
1.181,-1.268,-0.538,26.001,51.208,47.302
0.653,-1.271,-0.325,3.296,-13.245,21.484
0.097,-1.225,-0.097,-15.686,-56.396,10.925
-0.420,-1.212,0.083,-25.879,-73.486,15.930
-0.759,-1.265,0.226,-25.391,-65.491,23.804
-0.833,-1.238,0.376,-17.334,-40.649,22.095
-0.747,-1.109,0.368,-18.677,-15.381,14.587
-0.560,-1.002,0.199,-30.762,2.747,11.414
-0.345,-0.893,0.050,-37.720,11.841,15.137
-0.153,-0.813,-0.001,-34.058,13.794,18.127
-0.003,-0.835,-0.012,-27.954,11.658,16.602
0.089,-0.916,0.017,-20.630,5.615,12.512
0.111,-1.014,0.091,-14.893,-2.380,8.423
0.081,-1.098,0.181,-13.367,-10.498,7.874
0.029,-1.153,0.252,-16.296,-15.869,11.169
-0.007,-1.154,0.305,-22.949,-16.846,16.357
-0.076,-1.121,0.322,-29.724,-16.541,19.348
-0.116,-1.091,0.310,-36.133,-18.921,21.851
-0.163,-1.088,0.293,-40.344,-19.836,23.987
-0.173,-1.101,0.303,-38.208,-18.616,24.475
-0.159,-1.124,0.330,-33.997,-15.076,24.170
-0.135,-1.150,0.349,-30.518,-11.658,25.085
-0.143,-1.138,0.371,-29.175,-10.803,25.940
-0.179,-1.083,0.390,-30.090,-12.756,26.978
-0.233,-1.026,0.395,-33.081,-14.160,29.419
-0.263,-0.965,0.395,-35.156,-10.986,32.104
-0.244,-0.924,0.369,-34.973,-3.540,32.959
-0.182,-0.944,0.328,-35.522,3.784,32.776
-0.088,-0.988,0.305,-36.743,7.690,32.959
-0.009,-1.051,0.288,-40.039,8.118,34.119
0.047,-1.105,0.322,-46.753,6.958,39.429
0.071,-1.123,0.313,-56.641,8.484,48.584
0.112,-1.082,0.282,-61.890,9.094,56.274
0.141,-1.058,0.252,-64.026,4.944,60.059
0.141,-1.037,0.254,-63.599,-2.319,64.636
0.144,-1.032,0.284,-59.937,-7.690,70.251
0.085,-1.062,0.325,-59.998,-12.756,73.792
0.031,-1.084,0.387,-64.331,-16.968,74.585
0.016,-1.080,0.474,-72.388,-15.320,73.730
0.002,-1.041,0.436,-83.740,-7.568,74.280
0.041,-1.032,0.357,-93.079,-4.944,73.669
0.066,-1.054,0.368,-101.563,-8.911,72.021
0.098,-1.012,0.450,-103.821,-12.512,70.923
0.107,-1.001,0.525,-105.835,-11.169,70.557
0.129,-0.994,0.535,-114.868,-7.141,70.007
0.149,-0.944,0.520,-121.887,-3.601,69.580
0.170,-0.888,0.532,-124.084,-2.808,70.251
0.179,-0.819,0.565,-122.681,-1.709,74.707
0.188,-0.736,0.560,-116.943,2.991,82.642
0.172,-0.731,0.530,-112.732,7.690,89.600
0.161,-0.762,0.535,-110.535,7.141,90.332
0.172,-0.755,0.577,-105.774,1.770,83.313
0.176,-0.747,0.623,-105.164,-5.798,75.012
0.207,-0.688,0.719,-107.666,-12.207,70.313
0.235,-0.610,0.782,-105.713,-12.817,70.129
0.229,-0.567,0.780,-105.713,-8.484,75.012
0.198,-0.574,0.763,-108.032,-3.357,83.252
0.176,-0.548,0.771,-106.079,1.709,90.576
0.165,-0.494,0.797,-98.450,7.812,93.750
0.189,-0.433,0.780,-91.614,12.695,93.018
0.250,-0.403,0.764,-87.769,13.000,88.867
0.286,-0.419,0.750,-86.121,9.583,80.994
0.280,-0.426,0.771,-82.397,3.174,73.242
0.289,-0.452,0.795,-78.369,-4.456,67.810
0.272,-0.497,0.804,-78.491,-8.606,67.139
0.244,-0.458,0.885,-77.026,-10.010,71.838
0.213,-0.374,0.932,-73.914,-6.287,75.867
0.210,-0.294,0.949,-71.228,1.953,78.369
0.233,-0.238,0.925,-71.289,9.827,78.613
0.263,-0.224,0.874,-71.960,13.611,76.782
0.288,-0.232,0.827,-72.571,10.193,73.547
0.277,-0.237,0.798,-71.533,2.075,68.726
0.254,-0.262,0.786,-68.176,-5.066,62.622
0.246,-0.267,0.810,-62.866,-9.216,55.420
0.243,-0.251,0.866,-57.678,-10.376,48.767
0.276,-0.222,0.910,-52.185,-8.850,45.166
0.277,-0.172,0.937,-49.622,-5.432,47.729
0.275,-0.134,0.913,-49.500,-1.282,55.298
0.264,-0.131,0.873,-49.438,0.366,61.829
0.247,-0.161,0.848,-48.401,-1.587,61.584
0.237,-0.183,0.866,-44.189,-6.226,54.199
0.249,-0.178,0.899,-39.368,-10.437,43.762
0.274,-0.161,0.937,-36.011,-12.573,36.926
0.286,-0.137,0.959,-34.180,-12.268,37.231
0.291,-0.130,0.972,-33.081,-10.254,41.687
0.275,-0.127,0.967,-32.654,-8.911,45.776
0.243,-0.124,0.946,-32.837,-8.789,47.180
0.222,-0.099,0.925,-32.349,-9.155,46.326
0.234,-0.103,0.888,-30.762,-8.911,44.128
0.269,-0.105,0.875,-28.320,-8.362,41.687
0.291,-0.089,0.886,-24.780,-9.399,39.612
0.310,-0.095,0.901,-20.691,-10.254,37.415
0.345,-0.146,0.902,-17.761,-10.376,36.072
0.326,-0.172,0.925,-16.296,-10.742,37.354
-0.504,1.494,1.422,32.715,11.902,-27.405
-0.674,1.920,1.638,44.556,6.287,-20.752
-0.984,2.438,1.866,55.725,5.127,-3.601
-1.403,3.070,1.965,56.458,10.925,21.973
-1.894,3.808,1.803,51.392,26.306,42.419
-2.372,4.000,1.402,57.129,48.584,38.940
-2.744,4.000,0.859,93.994,67.932,-6.714
-2.888,4.000,0.389,168.579,81.421,-96.802
-2.794,4.000,-0.056,261.597,93.384,-215.210
-2.402,2.790,-0.695,343.262,108.398,-336.243
-1.641,0.909,-1.439,393.616,103.394,-428.833
-0.773,-0.882,-1.816,422.058,58.838,-464.172
-0.098,-1.951,-1.878,433.716,-9.827,-431.458
-0.396,-2.121,-1.714,414.856,-71.228,-362.854
-0.735,-2.261,-1.760,391.052,-85.754,-306.335
-0.823,-2.470,-2.146,400.452,-33.997,-263.672
-0.787,-2.750,-2.520,415.222,21.606,-254.883
-0.807,-3.384,-2.618,424.438,7.568,-302.795
-0.902,-4.000,-2.204,429.077,-46.143,-381.592
-1.032,-4.000,-1.300,427.002,-93.750,-446.106
-0.892,-4.000,-0.045,408.630,-86.914,-447.327
-0.266,-4.000,0.891,360.657,3.540,-369.202
0.804,-4.000,0.792,272.949,151.245,-238.770
1.708,-3.319,0.109,169.067,270.142,-83.008
2.307,-2.388,-0.527,94.421,306.091,49.805
2.356,-1.679,-0.765,37.720,245.300,102.539
1.797,-1.290,-0.610,-7.080,116.821,82.092
0.995,-1.083,-0.269,-34.973,-1.038,42.297
0.369,-1.110,0.050,-45.837,-63.843,19.287
-0.231,-1.133,0.342,-48.096,-83.557,16.235
-0.614,-1.227,0.588,-42.053,-75.439,20.691
-0.642,-1.182,0.740,-34.790,-44.922,22.705
-0.529,-0.945,0.685,-43.274,-16.052,25.208
-0.340,-0.711,0.480,-58.594,0.610,29.480
-0.105,-0.547,0.254,-64.148,8.972,28.625
0.037,-0.523,0.144,-57.434,2.930,19.104
0.084,-0.611,0.192,-43.945,-12.390,3.235
0.062,-0.785,0.332,-30.518,-26.489,-8.789
-0.012,-0.921,0.491,-21.851,-34.485,-12.939
-0.107,-0.955,0.629,-19.836,-33.630,-4.272
-0.124,-0.930,0.668,-22.461,-22.095,9.460
-0.079,-0.863,0.640,-27.893,-5.798,19.043
-0.011,-0.781,0.571,-33.936,4.211,21.301
0.068,-0.744,0.499,-38.696,4.333,17.090
0.139,-0.765,0.461,-36.987,-1.282,11.963
0.137,-0.802,0.490,-27.893,-8.606,10.864
0.065,-0.825,0.553,-17.395,-14.343,14.038
-0.006,-0.853,0.601,-8.240,-15.747,18.860
-0.064,-0.876,0.646,-1.953,-14.404,22.888
-0.112,-0.881,0.693,0.000,-12.756,24.841
-0.149,-0.868,0.713,-0.549,-8.911,25.452
-0.173,-0.831,0.707,-2.136,-0.183,26.978
-0.189,-0.745,0.662,-5.554,10.254,29.724
-0.126,-0.684,0.594,-8.667,18.066,28.870
-0.036,-0.656,0.534,-11.475,18.555,22.522
0.024,-0.669,0.477,-13.489,11.047,13.367
0.046,-0.736,0.475,-10.132,1.587,3.113
0.042,-0.801,0.527,-2.441,-3.845,-2.869
0.020,-0.863,0.587,2.930,-4.883,-1.526
-0.006,-0.883,0.631,4.944,-2.747,5.615
-0.013,-0.876,0.658,4.517,1.404,13.977
0.000,-0.868,0.639,0.183,3.967,19.897
0.003,-0.854,0.610,-5.859,3.906,22.034
0.025,-0.847,0.590,-10.559,2.136,21.179
0.039,-0.840,0.587,-13.550,0.610,20.142
0.037,-0.817,0.590,-14.709,-0.061,21.667
0.034,-0.803,0.583,-14.832,1.038,25.452
0.025,-0.777,0.569,-14.160,2.686,28.931
0.030,-0.765,0.572,-12.146,2.197,29.663
0.020,-0.768,0.596,-10.925,-1.587,27.222
-0.026,-0.787,0.627,-10.864,-5.981,23.132
-0.046,-0.802,0.660,-11.841,-8.484,17.456
-0.035,-0.817,0.670,-14.099,-7.812,13.977
-0.016,-0.826,0.662,-16.968,-4.333,15.320
0.006,-0.834,0.647,-18.555,0.244,19.836
0.050,-0.839,0.626,-19.165,5.310,25.330
0.096,-0.829,0.603,-19.653,9.277,29.602
0.137,-0.798,0.576,-20.813,10.437,31.494
0.162,-0.787,0.552,-20.447,8.667,31.799
0.144,-0.774,0.562,-18.372,4.822,31.555
0.129,-0.774,0.583,-17.456,-0.183,29.419
0.111,-0.786,0.614,-18.921,-5.371,26.672
0.095,-0.786,0.642,-20.264,-8.362,25.879
0.088,-0.805,0.657,-20.996,-7.385,28.320
0.091,-0.848,0.647,-21.912,-4.639,34.546
0.084,-0.871,0.647,-21.973,-1.831,41.748
0.083,-0.866,0.664,-21.667,0.916,48.218
0.090,-0.833,0.691,-22.339,3.357,52.490
0.097,-0.798,0.691,-23.987,5.798,54.199
0.123,-0.774,0.679,-27.283,7.446,54.199
0.140,-0.737,0.668,-29.358,8.057,53.223
0.144,-0.717,0.654,-30.701,7.446,51.819
0.154,-0.713,0.651,-30.823,5.432,49.194
0.149,-0.716,0.656,-30.212,2.197,45.776
0.131,-0.720,0.664,-29.236,-1.831,42.236
0.099,-0.718,0.687,-28.809,-5.798,39.856
0.074,-0.717,0.710,-27.710,-9.094,37.659
0.064,-0.717,0.734,-27.283,-9.338,35.828
0.068,-0.716,0.756,-27.283,-8.179,34.851
0.084,-0.711,0.762,-28.137,-3.662,36.560
0.119,-0.688,0.762,-28.320,2.930,38.940
0.167,-0.675,0.740,-28.320,8.728,41.321
0.204,-0.679,0.706,-30.029,10.559,43.030
0.213,-0.693,0.683,-31.799,7.446,42.114
0.207,-0.729,0.673,-31.921,1.953,39.856
0.182,-0.765,0.682,-30.701,-3.113,38.513
0.146,-0.767,0.741,-28.320,-5.859,39.307
0.143,-0.729,0.805,-24.963,-4.761,40.222
0.129,-0.724,0.826,-25.818,-0.671,41.565
0.127,-0.703,0.826,-29.297,3.296,43.945
0.131,-0.689,0.806,-31.433,6.897,45.105
0.156,-0.714,0.776,-33.875,9.155,44.556
0.184,-0.747,0.747,-36.804,8.850,42.480
0.206,-0.760,0.732,-39.673,7.019,40.222
0.233,-0.756,0.717,-42.725,5.737,40.466
0.260,-0.725,0.706,-45.715,6.348,43.396
0.265,-0.689,0.695,-46.753,7.690,47.729
0.262,-0.672,0.696,-47.180,8.362,51.819
0.255,-0.647,0.714,-46.143,7.812,53.711
-0.307,1.486,0.958,61.157,19.714,-49.255
-0.416,1.619,0.979,73.242,24.048,-49.194
-0.543,1.923,1.041,85.449,30.396,-45.715
-0.699,2.288,1.086,99.670,36.804,-41.565
-0.938,2.786,1.076,113.342,46.448,-34.912
-1.227,3.544,0.990,131.775,60.913,-24.597
-1.552,4.000,0.725,162.964,82.581,-25.269
-1.871,4.000,0.277,215.454,103.455,-57.251
-2.058,3.999,-0.109,283.081,109.497,-135.620
-2.108,3.205,-0.460,348.328,96.619,-255.737
-1.853,1.794,-0.908,392.822,70.618,-386.169
-1.078,-0.243,-1.400,416.077,34.180,-477.478
-0.003,-1.912,-1.541,423.279,-24.414,-484.924
-0.109,-2.071,-1.243,405.396,-100.647,-419.434
-0.640,-2.097,-1.349,364.685,-135.681,-330.933
-1.155,-2.309,-1.975,353.333,-103.088,-252.319
-1.596,-2.631,-2.472,382.507,-51.636,-219.849
-1.787,-3.346,-2.566,428.284,-36.072,-266.357
-1.749,-4.000,-2.181,462.646,-58.533,-372.925
-1.560,-4.000,-1.421,468.262,-98.816,-478.943
-1.300,-4.000,-0.145,449.585,-116.089,-509.338
-0.650,-4.000,1.132,408.325,-52.734,-439.941
0.478,-4.000,1.298,329.773,114.014,-279.297
1.700,-3.517,0.457,210.327,287.598,-80.017
2.604,-2.343,-0.560,116.943,350.464,76.782
2.736,-1.579,-1.012,47.791,274.109,112.671
2.101,-1.343,-0.872,-3.784,103.882,51.208
1.175,-1.393,-0.385,-34.302,-48.218,-17.517
0.325,-1.505,0.087,-50.049,-114.990,-36.560
-0.320,-1.444,0.394,-54.565,-109.131,-7.690
-0.768,-1.307,0.512,-58.105,-68.420,33.997
-0.734,-1.078,0.524,-60.791,-25.696,56.152
-0.625,-0.778,0.459,-71.655,-1.892,49.500
-0.421,-0.545,0.305,-84.473,4.395,32.715
-0.167,-0.444,0.119,-84.412,6.653,16.968
0.040,-0.487,0.013,-67.505,1.038,5.127
0.254,-0.620,0.048,-39.001,-5.493,-2.136
0.222,-0.812,0.247,-12.878,-16.174,-8.972
0.175,-1.032,0.410,-6.104,-32.410,-6.104
0.047,-1.138,0.539,-10.803,-39.795,4.761
-0.125,-1.103,0.672,-16.052,-34.607,21.423
-0.243,-1.011,0.692,-24.963,-19.897,41.443
-0.240,-0.847,0.604,-35.278,-1.282,55.359
-0.150,-0.655,0.467,-43.213,13.794,58.472
-0.021,-0.548,0.322,-47.424,17.639,50.354
0.083,-0.529,0.250,-43.335,8.850,34.180
0.121,-0.609,0.269,-31.982,-6.226,17.395
0.092,-0.739,0.370,-17.517,-19.836,6.897
0.059,-0.862,0.484,-5.005,-25.391,5.249
-0.006,-0.921,0.579,1.282,-24.109,10.620
-0.096,-0.930,0.640,1.526,-19.287,19.348
-0.183,-0.915,0.667,-2.869,-13.123,26.306
-0.204,-0.873,0.640,-9.460,-5.127,27.954
-0.163,-0.820,0.589,-15.808,1.953,25.574
-0.108,-0.774,0.543,-18.311,7.629,23.132
-0.040,-0.738,0.495,-16.968,13.367,22.644
0.028,-0.738,0.448,-11.536,18.311,23.437
0.090,-0.770,0.447,-5.676,18.860,23.010
0.101,-0.812,0.471,-3.113,12.573,20.203
0.068,-0.853,0.506,-4.333,4.211,16.357
0.022,-0.875,0.539,-6.287,-1.831,14.160
0.001,-0.889,0.569,-8.057,-3.662,14.221
-0.014,-0.896,0.583,-10.315,-2.869,15.808
-0.033,-0.908,0.589,-12.512,-0.488,18.188
-0.020,-0.903,0.600,-13.611,3.296,20.813
0.012,-0.897,0.581,-14.771,8.240,23.132
0.049,-0.871,0.545,-16.663,10.010,25.452
0.068,-0.856,0.516,-18.066,8.118,25.330
0.060,-0.846,0.515,-18.005,3.723,23.560
0.050,-0.846,0.524,-16.968,-1.282,20.264
0.048,-0.870,0.535,-15.686,-5.127,17.151
0.051,-0.888,0.560,-13.672,-6.714,16.968
0.060,-0.920,0.575,-12.024,-5.798,19.531
0.074,-0.944,0.591,-12.207,-3.723,23.376
0.080,-0.941,0.605,-13.245,-2.197,26.550
0.078,-0.921,0.597,-16.846,-1.648,29.846
0.083,-0.870,0.583,-19.287,-1.709,32.227
0.086,-0.839,0.560,-20.691,-2.136,32.715
0.067,-0.832,0.539,-21.606,-4.272,32.043
0.050,-0.825,0.545,-20.508,-5.981,31.189
0.054,-0.830,0.552,-18.494,-6.958,29.968
0.062,-0.856,0.553,-17.334,-7.446,30.457
0.083,-0.885,0.574,-17.273,-7.690,32.776
0.114,-0.912,0.589,-17.883,-7.080,36.072
0.112,-0.926,0.613,-21.973,-7.935,41.321
0.106,-0.891,0.629,-26.611,-9.277,44.556
0.101,-0.875,0.610,-31.799,-9.583,44.495
0.080,-0.869,0.599,-35.889,-10.559,43.030
0.073,-0.869,0.608,-36.011,-11.047,40.771
0.067,-0.879,0.613,-34.607,-10.437,40.161
0.059,-0.864,0.628,-33.569,-8.301,42.297
0.050,-0.827,0.644,-32.898,-4.456,46.143
0.049,-0.795,0.641,-32.715,-0.610,48.462
0.064,-0.790,0.618,-33.813,1.953,48.645
0.085,-0.811,0.599,-35.767,1.709,47.485
0.076,-0.830,0.599,-37.659,-0.854,46.753
0.077,-0.868,0.596,-39.429,-1.404,46.875
0.100,-0.876,0.613,-40.344,0.793,47.607
0.151,-0.835,0.647,-41.748,4.456,47.424
0.191,-0.791,0.660,-45.471,6.836,47.241
0.213,-0.761,0.646,-50.537,6.470,48.828
0.183,-0.749,0.633,-54.382,3.723,51.331
0.138,-0.751,0.625,-55.115,0.427,54.016
0.118,-0.771,0.634,-52.979,-0.183,55.176
0.106,-0.789,0.660,-50.781,0.671,56.152
0.115,-0.776,0.689,-49.988,2.686,56.335
0.141,-0.747,0.693,-51.331,5.066,54.382
0.179,-0.732,0.664,-54.260,6.714,51.697
0.217,-0.722,0.653,-56.946,6.042,49.683
0.213,-0.679,0.692,-56.946,3.906,49.622
0.198,-0.641,0.746,-56.091,3.052,51.514
0.181,-0.621,0.768,-54.749,4.395,53.711
0.183,-0.628,0.762,-53.955,7.568,55.054
0.200,-0.646,0.736,-53.406,10.620,55.725
0.216,-0.667,0.707,-52.673,12.146,56.213
0.230,-0.671,0.718,-52.368,12.207,58.167
0.229,-0.647,0.755,-51.697,11.780,59.692
0.206,-0.642,0.771,-54.260,10.437,58.777
0.207,-0.610,0.786,-59.143,8.240,54.626
-0.380,1.551,0.891,76.965,22.766,-106.506
-0.433,1.713,0.882,93.445,29.846,-115.112
-0.438,1.941,0.930,109.802,35.217,-117.126
-0.489,2.212,0.930,125.793,38.086,-114.075
-0.611,2.498,0.906,146.240,38.879,-110.168
-0.691,2.680,0.832,180.420,43.701,-113.281
-0.786,2.725,0.721,218.872,50.293,-128.967
-0.868,2.748,0.593,253.723,52.185,-157.898
-0.925,2.699,0.427,286.194,52.795,-194.214
-1.015,2.466,0.185,318.665,57.800,-231.934
-1.028,1.941,-0.160,354.187,65.552,-269.775
-0.746,0.846,-0.582,381.470,61.279,-306.396
-0.219,-0.423,-0.850,391.541,31.372,-331.482
0.330,-1.301,-0.774,388.000,-26.428,-324.463
0.087,-1.446,-0.587,347.595,-90.454,-276.245
-0.366,-1.518,-0.758,281.250,-124.573,-215.454
-0.716,-1.466,-1.273,241.699,-117.065,-174.744
-0.785,-1.628,-1.851,254.028,-93.994,-169.189
-0.821,-2.170,-1.954,310.913,-87.463,-193.298
-0.776,-2.934,-1.646,363.953,-99.976,-235.779
-0.843,-3.567,-1.057,384.705,-123.169,-282.043
-0.945,-3.999,-0.348,371.948,-133.667,-310.669
-0.988,-4.000,0.335,332.031,-111.267,-308.228
-0.782,-4.000,0.870,281.189,-49.255,-266.418
-0.123,-3.640,1.009,223.328,48.706,-192.993
0.714,-2.854,0.662,153.198,155.457,-102.295
1.367,-2.115,0.049,84.778,223.572,-16.235
1.788,-1.569,-0.415,35.339,220.703,35.278
1.745,-1.222,-0.506,3.235,149.475,36.926
1.217,-1.122,-0.279,-15.991,44.495,10.742
0.654,-1.244,0.062,-24.658,-36.499,-13.000
0.111,-1.292,0.398,-29.724,-70.862,-18.555
-0.306,-1.322,0.654,-32.471,-67.505,-7.568
-0.381,-1.219,0.725,-32.654,-36.865,7.080
-0.389,-0.994,0.619,-42.114,-3.052,20.508
-0.302,-0.753,0.463,-50.720,20.508,30.212
-0.086,-0.602,0.319,-52.612,28.320,34.241
0.039,-0.545,0.223,-52.124,21.057,27.466
0.143,-0.607,0.209,-43.762,6.775,7.568
0.171,-0.749,0.308,-28.503,-7.446,-9.583
0.126,-0.882,0.463,-15.564,-17.334,-13.550
0.043,-0.975,0.564,-10.681,-18.738,-6.042
-0.034,-0.972,0.618,-9.705,-11.597,7.507
-0.036,-0.911,0.606,-10.803,1.526,20.935
0.007,-0.819,0.552,-14.709,14.221,30.334
0.053,-0.694,0.509,-18.433,20.630,34.973
0.106,-0.582,0.449,-21.667,22.644,32.776
0.138,-0.570,0.400,-22.095,17.761,23.865
0.151,-0.617,0.409,-15.930,5.859,11.719
0.127,-0.722,0.466,-6.714,-6.958,1.221
0.118,-0.827,0.558,3.479,-15.747,-2.686
0.065,-0.872,0.655,10.132,-17.761,2.197
0.005,-0.904,0.711,11.292,-14.038,13.428
-0.041,-0.879,0.742,8.850,-6.714,22.949
-0.041,-0.823,0.701,2.808,2.136,25.513
-0.010,-0.785,0.624,-3.601,7.080,23.193
0.014,-0.747,0.585,-5.249,6.531,17.151
0.023,-0.736,0.578,-3.357,3.906,10.681
0.018,-0.759,0.579,-0.122,2.502,7.141
0.026,-0.792,0.593,3.845,2.930,6.104
0.029,-0.832,0.599,5.859,3.967,7.568
0.036,-0.856,0.610,5.798,4.456,10.803
0.029,-0.875,0.618,5.066,4.700,13.489
0.020,-0.879,0.619,2.319,5.249,14.954
0.015,-0.864,0.610,-1.953,5.249,14.648
0.010,-0.845,0.583,-5.798,4.822,12.024
0.011,-0.827,0.563,-7.263,3.967,8.972
0.030,-0.818,0.561,-5.981,3.784,6.958
0.038,-0.811,0.560,-4.822,4.211,5.493
0.048,-0.814,0.555,-3.784,4.578,4.211
0.089,-0.869,0.545,-3.174,4.089,2.869
0.104,-0.906,0.574,-3.174,1.587,4.028
0.078,-0.925,0.614,-4.150,-0.854,8.301
0.075,-0.947,0.637,-6.165,0.916,13.489
0.102,-0.958,0.643,-9.338,3.906,17.639
0.110,-0.951,0.642,-14.038,3.784,19.958
0.102,-0.938,0.641,-18.372,0.793,21.484
0.085,-0.935,0.640,-20.935,-1.953,23.254
0.071,-0.928,0.644,-21.545,-2.686,24.963
0.072,-0.910,0.645,-21.545,-0.916,26.611
0.093,-0.938,0.624,-21.667,2.319,29.541
0.121,-0.938,0.622,-21.790,4.822,34.180
0.158,-0.938,0.620,-23.132,6.042,37.354
0.188,-0.923,0.608,-27.588,4.700,38.879
0.148,-0.863,0.602,-34.790,-1.038,41.138
0.086,-0.815,0.589,-39.246,-6.592,44.434
0.044,-0.788,0.588,-38.330,-7.202,46.875
0.030,-0.762,0.600,-34.119,-3.174,47.791
0.040,-0.733,0.615,-30.579,1.526,47.546
0.057,-0.711,0.616,-28.992,4.761,46.631
0.091,-0.687,0.608,-26.794,7.019,44.373
0.118,-0.689,0.589,-26.123,7.324,40.222
0.109,-0.702,0.591,-25.452,3.723,36.682
0.116,-0.755,0.617,-22.949,0.183,33.142
0.111,-0.802,0.662,-21.790,-2.014,31.616
0.097,-0.825,0.699,-23.621,-2.869,33.203
0.109,-0.809,0.715,-26.672,-0.305,36.194
0.126,-0.784,0.689,-31.006,4.028,38.818
0.139,-0.752,0.659,-33.997,5.981,39.001
0.140,-0.726,0.646,-33.752,5.188,37.476
0.134,-0.717,0.649,-31.372,3.479,35.706
0.135,-0.732,0.654,-27.710,3.296,34.058
0.137,-0.744,0.680,-24.597,4.456,32.654
0.158,-0.777,0.701,-22.095,7.446,31.006
0.207,-0.822,0.708,-23.499,9.399,30.334
0.258,-0.838,0.707,-28.198,6.775,32.532
0.229,-0.819,0.716,-36.499,0.122,37.109
0.185,-0.778,0.724,-43.823,-6.165,41.504
0.178,-0.716,0.729,-47.607,-6.470,42.480
0.169,-0.679,0.715,-48.523,-3.662,41.687
0.162,-0.655,0.711,-46.265,-1.221,40.527
0.180,-0.662,0.705,-42.908,0.793,38.696
0.185,-0.684,0.695,-40.588,1.770,36.499
0.193,-0.682,0.705,-38.574,2.136,33.386
0.227,-0.689,0.708,-36.926,3.357,29.297
0.290,-0.711,0.713,-37.109,4.089,28.076
0.298,-0.689,0.736,-38.330,1.404,32.227
0.254,-0.661,0.754,-40.955,-3.235,40.466
0.193,-0.642,0.752,-42.542,-5.249,48.828
-0.233,2.042,1.219,77.759,32.776,6.287
-0.377,2.404,1.321,84.778,34.302,2.258
-0.599,2.738,1.322,92.896,35.400,-8.484
-0.874,3.122,1.229,106.262,35.767,-20.386
-1.199,3.585,1.114,129.395,41.931,-32.959
-1.540,3.983,0.955,165.588,57.129,-50.659
-1.790,3.999,0.642,208.191,76.050,-88.562
-1.933,3.552,0.238,254.456,88.318,-166.138
-1.817,2.611,-0.228,306.335,84.412,-272.705
-1.443,1.197,-0.770,347.046,65.674,-379.517
-0.731,-0.441,-1.170,370.728,28.076,-449.219
-0.175,-1.339,-1.175,383.545,-24.414,-447.021
-0.323,-1.461,-1.264,370.239,-69.336,-379.211
-0.683,-1.797,-1.777,335.388,-84.290,-288.391
-1.144,-2.169,-2.376,322.632,-72.144,-219.238
-1.531,-2.677,-2.752,348.755,-58.105,-217.529
-1.602,-3.457,-2.643,390.137,-53.101,-280.640
-1.546,-4.000,-2.011,418.030,-60.547,-366.089
-1.367,-4.000,-1.062,417.236,-77.454,-422.058
-1.063,-4.000,-0.067,387.756,-73.730,-418.640
-0.487,-4.000,0.681,339.355,-19.958,-351.685
0.403,-4.000,0.956,273.132,81.848,-230.286
1.340,-3.280,0.414,183.167,192.383,-98.022
1.969,-2.218,-0.418,83.923,237.915,4.333
2.013,-1.386,-0.924,7.019,191.589,49.011
1.385,-1.064,-0.899,-35.034,81.970,40.405
0.539,-1.089,-0.403,-32.654,-21.606,12.207
-0.266,-1.118,0.175,-15.381,-67.810,-9.033
-0.788,-1.135,0.550,-5.127,-63.843,-13.123
-0.872,-1.032,0.640,1.831,-29.785,-3.601
-0.674,-0.867,0.505,-2.136,7.812,6.104
-0.379,-0.702,0.321,-11.108,26.245,7.629
-0.094,-0.608,0.183,-19.592,26.794,0.549
0.114,-0.680,0.124,-22.400,14.709,-9.705
0.238,-0.865,0.161,-20.264,-2.502,-19.226
0.300,-1.010,0.248,-19.165,-15.686,-24.536
0.210,-1.141,0.338,-21.912,-24.231,-22.095
0.107,-1.168,0.435,-25.085,-24.536,-10.193
-0.038,-1.106,0.516,-24.475,-19.470,8.972
-0.105,-0.985,0.526,-23.437,-9.460,29.663
-0.117,-0.873,0.478,-25.574,4.578,38.818
-0.085,-0.765,0.414,-27.100,14.038,35.095
-0.057,-0.707,0.388,-26.123,10.071,22.583
-0.065,-0.716,0.385,-22.766,-2.014,8.911
-0.032,-0.804,0.432,-13.733,-10.254,-0.183
0.004,-0.906,0.518,-0.854,-11.597,-2.563
0.001,-0.992,0.601,7.996,-9.399,2.258
0.015,-1.042,0.639,10.193,-4.272,9.583
0.000,-1.068,0.658,8.728,0.549,15.015
-0.010,-1.071,0.666,4.761,2.747,17.517
-0.013,-1.045,0.649,-1.587,2.808,15.930
-0.031,-0.980,0.611,-7.690,2.319,14.404
-0.017,-0.907,0.553,-9.888,4.456,15.564
0.013,-0.864,0.507,-7.324,6.470,15.930
0.037,-0.872,0.483,-2.136,5.920,13.000
0.059,-0.942,0.496,2.991,3.174,7.935
0.062,-1.001,0.542,6.775,0.244,4.883
0.056,-1.026,0.589,6.897,-0.488,6.714
0.019,-0.996,0.607,1.953,0.305,14.038
-0.035,-0.938,0.591,-5.005,1.526,22.217
-0.073,-0.875,0.558,-10.742,2.808,25.757
-0.082,-0.833,0.521,-14.771,2.686,23.071
-0.050,-0.818,0.493,-16.052,1.526,16.479
-0.011,-0.816,0.475,-14.526,0.427,10.071
0.001,-0.830,0.474,-11.658,-0.977,6.836
0.006,-0.861,0.491,-7.996,-1.587,7.263
-0.000,-0.893,0.520,-5.310,-0.732,10.315
-0.007,-0.884,0.541,-4.395,0.854,13.733
-0.001,-0.878,0.543,-5.737,2.441,16.907
-0.015,-0.872,0.548,-8.606,2.563,19.470
-0.026,-0.856,0.542,-12.085,1.831,20.325
-0.016,-0.858,0.525,-15.503,1.465,19.043
0.004,-0.877,0.498,-17.883,1.221,16.846
0.035,-0.890,0.479,-17.273,1.282,16.052
0.063,-0.905,0.472,-13.977,2.563,17.456
0.089,-0.914,0.467,-10.498,4.028,20.874
0.109,-0.906,0.470,-7.629,5.310,25.146
0.116,-0.897,0.479,-6.775,4.822,27.588
0.107,-0.911,0.485,-8.179,2.136,28.076
0.095,-0.918,0.501,-11.108,-2.136,27.527
0.064,-0.914,0.521,-14.954,-6.592,26.794
0.047,-0.920,0.525,-18.311,-8.240,28.015
0.054,-0.924,0.523,-18.921,-6.470,30.457
0.082,-0.907,0.527,-17.334,-3.235,33.569
0.103,-0.887,0.516,-16.418,-0.671,36.804
0.094,-0.866,0.506,-16.541,-0.183,39.795
0.066,-0.829,0.515,-16.113,-1.465,41.260
0.027,-0.801,0.520,-15.747,-2.747,40.955
-0.008,-0.785,0.531,-15.503,-3.113,39.124
-0.013,-0.773,0.552,-14.587,-2.563,34.119
0.001,-0.772,0.563,-13.489,-0.671,29.358
0.024,-0.786,0.559,-12.512,1.587,27.405
0.053,-0.804,0.552,-10.742,3.418,27.771
0.082,-0.820,0.546,-8.789,5.676,29.602
0.119,-0.858,0.532,-7.751,7.690,31.982
0.169,-0.907,0.523,-8.423,7.324,34.485
0.188,-0.910,0.539,-10.559,4.211,37.354
0.193,-0.866,0.561,-15.076,0.244,39.551
0.158,-0.842,0.564,-22.156,-3.418,40.710
0.142,-0.810,0.563,-26.978,-6.348,38.757
0.126,-0.793,0.553,-28.442,-9.155,33.508
0.117,-0.798,0.556,-27.100,-11.719,28.748
0.113,-0.822,0.574,-22.888,-13.306,26.245
0.104,-0.847,0.600,-17.944,-12.939,26.245
0.093,-0.868,0.618,-13.855,-10.437,28.809
0.099,-0.881,0.637,-11.963,-6.592,32.715
0.120,-0.848,0.669,-12.695,-3.357,34.973
0.122,-0.832,0.665,-16.113,-2.197,34.424
0.119,-0.828,0.652,-21.729,-3.662,32.471
0.125,-0.813,0.644,-25.085,-6.042,27.588
0.134,-0.826,0.627,-27.527,-7.812,21.973
0.156,-0.844,0.618,-28.137,-8.972,19.226
0.157,-0.848,0.622,-26.489,-9.521,19.714
0.170,-0.819,0.637,-23.437,-8.606,23.132
0.162,-0.796,0.642,-20.325,-6.348,27.527
0.150,-0.786,0.647,-18.860,-4.578,31.494
0.156,-0.769,0.657,-17.517,-3.601,33.203
0.146,-0.779,0.667,-18.372,-4.822,32.410
0.120,-0.786,0.679,-20.508,-7.385,31.738
-0.652,1.724,0.707,17.700,-3.784,-42.236
-0.816,1.925,0.765,31.982,-1.648,-54.810
-1.012,2.145,0.825,48.645,2.319,-67.444
-1.247,2.369,0.814,65.125,9.460,-80.627
-1.529,2.594,0.700,79.834,25.146,-93.323
-1.719,2.917,0.514,97.534,51.575,-104.919
-1.898,3.314,0.239,123.352,82.764,-120.728
-2.015,3.547,-0.131,160.217,104.004,-151.123
-2.177,3.396,-0.540,209.534,109.436,-207.642
-2.223,2.867,-0.859,275.818,104.980,-288.818
-2.042,1.919,-1.159,344.238,99.670,-374.512
-1.523,0.571,-1.508,399.353,98.022,-437.866
-0.552,-1.115,-1.793,436.279,87.158,-453.979
-0.052,-1.898,-1.757,443.970,56.702,-400.085
-0.058,-2.192,-1.865,406.494,19.287,-325.134
-0.294,-2.546,-2.276,363.708,-17.761,-279.663
-0.630,-3.051,-2.585,368.164,-52.612,-284.607
-0.858,-3.849,-2.471,419.739,-77.515,-321.960
-0.844,-4.000,-1.844,484.375,-82.825,-367.798
-0.773,-4.000,-0.679,518.738,-79.712,-397.827
-0.656,-4.000,0.953,498.474,-66.833,-393.127
-0.245,-4.000,2.146,412.170,-14.709,-349.060
0.746,-4.000,1.971,270.996,88.745,-247.559
1.742,-3.567,1.005,127.808,200.500,-114.319
2.737,-2.347,-0.057,46.631,261.719,-9.888
2.935,-1.341,-0.570,3.235,222.961,39.978
2.174,-0.865,-0.598,-30.518,92.834,36.621
1.113,-0.816,-0.241,-47.852,-50.476,1.099
0.212,-0.918,0.208,-41.809,-127.380,-34.119
-0.447,-1.068,0.592,-23.987,-125.488,-41.748
-0.642,-1.165,0.869,-4.272,-80.139,-22.278
-0.624,-1.017,0.897,-3.601,-23.926,5.066
-0.527,-0.761,0.674,-18.188,18.921,29.297
-0.305,-0.531,0.450,-24.719,43.030,42.664
0.045,-0.414,0.257,-25.330,42.297,36.560
0.333,-0.486,0.148,-21.851,23.071,6.226
0.530,-0.693,0.165,-11.658,-4.028,-29.175
0.535,-0.867,0.300,-1.526,-28.870,-46.814
0.417,-1.037,0.445,2.747,-42.603,-42.969
0.268,-1.152,0.590,5.493,-44.006,-24.353
0.126,-1.143,0.720,6.470,-34.180,-1.587
0.039,-1.066,0.738,-0.427,-16.907,16.418
0.068,-0.945,0.643,-11.841,-0.427,25.146
0.117,-0.796,0.511,-23.987,7.446,24.292
0.171,-0.641,0.408,-30.151,4.456,18.677
0.199,-0.568,0.373,-26.550,-2.625,11.841
0.205,-0.596,0.409,-14.526,-8.301,5.737
0.185,-0.676,0.507,0.549,-9.827,2.258
0.158,-0.782,0.602,12.268,-7.202,1.831
0.152,-0.851,0.664,16.357,-2.747,4.333
0.148,-0.894,0.685,13.855,0.549,7.935
0.115,-0.887,0.693,6.958,1.465,12.634
0.087,-0.831,0.682,-2.014,1.282,14.832
0.098,-0.794,0.636,-9.644,1.953,12.634
0.148,-0.761,0.582,-12.634,2.686,9.766
0.198,-0.766,0.544,-10.803,3.174,7.935
0.231,-0.791,0.532,-5.371,3.601,7.324
0.229,-0.829,0.557,1.892,3.967,9.399
0.218,-0.839,0.592,5.981,4.456,12.756
0.209,-0.851,0.599,4.517,4.272,16.479
0.160,-0.844,0.608,0.000,1.709,19.836
0.125,-0.828,0.616,-4.211,-1.343,19.775
0.115,-0.820,0.614,-7.996,-2.686,18.005
0.098,-0.816,0.611,-9.827,-2.930,16.907
0.110,-0.800,0.606,-9.949,-1.221,16.479
0.136,-0.790,0.590,-9.521,1.221,16.357
0.155,-0.794,0.571,-8.179,2.625,16.479
0.176,-0.803,0.568,-5.127,2.808,16.479
0.198,-0.837,0.575,-3.479,2.075,17.273
0.193,-0.843,0.594,-4.761,0.610,19.409
0.168,-0.843,0.607,-7.935,-1.282,20.813
0.145,-0.841,0.612,-11.169,-2.625,20.813
0.135,-0.830,0.613,-13.977,-2.197,21.240
0.129,-0.803,0.613,-15.320,-0.305,22.888
0.141,-0.793,0.604,-14.587,2.808,24.780
0.171,-0.795,0.586,-13.672,5.310,25.146
0.210,-0.797,0.571,-12.146,5.737,24.414
0.246,-0.808,0.560,-10.010,4.761,23.499
0.268,-0.842,0.560,-7.080,3.784,23.865
0.311,-0.886,0.573,-4.944,3.235,26.550
0.311,-0.896,0.591,-6.653,2.014,31.006
0.294,-0.887,0.594,-10.864,-0.671,34.485
0.274,-0.873,0.585,-15.015,-3.113,36.438
0.258,-0.846,0.578,-17.822,-3.601,38.757
0.202,-0.778,0.582,-18.372,-2.930,41.443
0.135,-0.687,0.577,-19.897,-1.709,44.067
0.085,-0.632,0.558,-20.386,-0.977,44.373
0.073,-0.618,0.551,-17.578,-0.183,40.466
0.095,-0.622,0.567,-13.000,0.732,32.227
0.139,-0.642,0.577,-8.118,2.258,22.400
0.249,-0.760,0.571,-4.333,3.784,16.235
0.293,-0.812,0.611,-4.517,1.648,18.982
0.269,-0.810,0.652,-8.911,-2.869,27.466
0.235,-0.808,0.657,-14.282,-3.967,35.461
0.220,-0.786,0.657,-16.663,-1.587,40.466
0.217,-0.768,0.650,-16.418,1.404,41.382
0.232,-0.765,0.634,-16.846,1.953,39.612
0.256,-0.776,0.631,-17.273,0.488,36.377
0.289,-0.813,0.622,-17.212,-0.793,33.325
0.303,-0.843,0.624,-17.639,-0.977,33.569
0.322,-0.864,0.623,-18.799,0.061,35.767
0.342,-0.893,0.611,-21.301,0.793,38.574
0.354,-0.868,0.621,-26.794,-2.136,41.382
0.338,-0.827,0.629,-34.119,-8.301,42.786
0.308,-0.778,0.648,-41.321,-14.404,44.250
0.274,-0.725,0.672,-44.922,-17.151,45.959
0.255,-0.694,0.672,-45.410,-15.198,46.692
0.244,-0.678,0.666,-43.152,-11.292,47.119
0.240,-0.677,0.670,-38.574,-7.507,46.814
0.260,-0.695,0.672,-33.997,-3.845,44.800
0.320,-0.755,0.655,-31.250,-0.977,41.443
0.368,-0.827,0.642,-33.325,-2.136,40.405
0.354,-0.833,0.670,-39.246,-8.240,42.603
0.313,-0.792,0.711,-44.800,-12.939,46.326
0.284,-0.759,0.722,-49.805,-12.024,49.805
0.283,-0.686,0.741,-52.368,-8.179,52.612
0.275,-0.625,0.736,-51.636,-3.662,53.467
0.281,-0.582,0.715,-50.476,0.122,53.894
0.297,-0.563,0.684,-47.607,3.357,53.345
0.212,1.139,1.314,149.475,27.283,-95.459
0.210,1.282,1.430,168.884,28.259,-103.455
0.245,1.471,1.609,187.195,27.283,-108.521
0.244,1.698,1.835,197.937,29.236,-111.145
0.211,1.915,1.984,205.139,34.546,-110.474
0.138,2.112,2.059,216.248,40.405,-112.671
0.073,2.331,2.041,231.506,50.537,-122.742
0.000,2.481,1.875,248.535,63.232,-138.977
-0.071,2.629,1.685,264.221,64.209,-153.870
-0.310,2.818,1.501,275.452,52.063,-164.001
-0.619,2.754,1.172,287.537,38.513,-169.189
-0.927,2.324,0.770,308.228,36.316,-179.016
-1.017,1.639,0.395,325.623,40.771,-208.069
-0.958,0.849,-0.077,315.430,36.316,-255.676
-0.689,-0.082,-0.744,285.400,16.235,-300.354
-0.389,-0.991,-1.384,255.310,-20.447,-315.674
-0.413,-1.827,-1.779,239.746,-60.852,-285.339
-0.364,-2.330,-2.027,240.173,-67.749,-213.928
-0.461,-2.379,-2.177,246.094,-44.434,-149.109
-0.656,-2.380,-2.132,262.512,-18.066,-126.587
-0.916,-2.544,-1.905,273.621,-6.897,-150.269
-1.037,-3.008,-1.524,262.634,-15.808,-210.815
-1.064,-3.398,-0.964,235.657,-26.184,-265.259
-0.741,-3.576,-0.438,207.886,-7.263,-268.127
-0.101,-3.307,-0.092,180.969,48.584,-207.214
0.563,-2.740,-0.176,142.517,112.488,-112.061
0.988,-2.106,-0.420,97.900,139.526,-24.719
1.117,-1.680,-0.611,56.091,119.385,19.592
0.953,-1.483,-0.581,20.447,71.472,17.883
0.682,-1.395,-0.362,0.122,24.170,-1.831
0.329,-1.353,-0.083,-9.155,-5.920,-13.916
0.012,-1.320,0.108,-13.855,-18.616,-7.629
-0.160,-1.224,0.182,-17.517,-15.381,7.568
-0.205,-1.070,0.172,-20.508,-7.324,17.456
-0.203,-0.912,0.155,-22.156,-2.930,17.578
-0.156,-0.786,0.128,-20.386,-0.305,12.329
-0.050,-0.712,0.088,-17.578,2.991,8.362
0.079,-0.686,0.060,-13.672,3.357,1.770
0.182,-0.779,0.050,-11.841,-3.723,-9.949
0.183,-0.945,0.126,-10.254,-17.151,-19.897
0.105,-1.103,0.266,-7.812,-27.161,-19.592
-0.011,-1.156,0.403,-6.409,-26.001,-6.042
-0.098,-1.096,0.458,-7.202,-15.320,15.442
-0.153,-0.930,0.454,-9.949,-3.113,37.537
-0.168,-0.728,0.403,-12.939,6.714,51.453
-0.121,-0.566,0.313,-16.541,12.573,52.673
-0.070,-0.511,0.299,-12.878,7.263,38.086
-0.025,-0.631,0.308,-7.324,-3.601,14.709
0.028,-0.834,0.351,-1.038,-10.986,-7.385
0.086,-1.045,0.413,7.629,-13.428,-18.921
0.108,-1.206,0.510,13.916,-13.916,-14.221
0.067,-1.245,0.578,13.916,-11.719,1.221
0.018,-1.168,0.581,7.935,-6.958,20.264
-0.006,-1.026,0.520,-0.244,-0.183,36.621
-0.065,-0.900,0.466,-5.859,2.747,45.532
-0.087,-0.827,0.433,-8.667,2.319,39.307
-0.040,-0.816,0.395,-11.108,0.122,18.799
-0.001,-0.863,0.384,-9.888,-4.333,-1.648
0.031,-0.941,0.430,-2.869,-6.226,-10.681
0.054,-1.012,0.465,4.944,-2.747,-8.118
0.056,-1.054,0.497,8.789,0.183,1.160
0.027,-1.056,0.512,8.301,0.244,11.292
0.010,-1.035,0.510,4.639,0.488,20.569
-0.009,-1.010,0.497,0.793,2.075,27.100
0.004,-0.984,0.476,-2.747,4.700,31.189
0.021,-0.969,0.446,-6.592,6.104,31.006
0.047,-0.965,0.437,-10.132,5.188,26.733
0.070,-0.959,0.418,-13.428,2.930,20.569
0.092,-0.940,0.389,-14.526,0.610,16.357
0.102,-0.927,0.375,-11.719,-1.099,15.137
0.095,-0.928,0.391,-7.507,-1.404,16.113
0.063,-0.936,0.417,-5.127,-2.014,19.165
0.020,-0.934,0.450,-4.150,-2.808,23.010
-0.014,-0.943,0.464,-4.211,-1.892,26.978
-0.035,-0.952,0.467,-4.883,0.793,29.846
-0.016,-0.956,0.458,-6.165,3.906,30.212
0.022,-0.974,0.432,-9.827,5.127,26.367
0.080,-1.011,0.410,-14.954,3.601,19.104
0.136,-1.045,0.388,-19.714,0.427,13.306
0.197,-1.057,0.371,-21.118,-2.502,13.306
0.230,-1.063,0.349,-21.118,-4.883,18.860
0.219,-1.051,0.359,-21.179,-8.484,28.137
0.163,-1.023,0.391,-21.423,-12.878,37.537
0.100,-1.019,0.408,-22.339,-15.259,45.654
0.059,-1.011,0.432,-24.048,-15.991,50.598
0.021,-0.998,0.462,-26.611,-14.282,52.246
0.010,-0.972,0.481,-31.006,-11.536,52.185
0.019,-0.924,0.488,-37.231,-9.766,50.354
0.042,-0.900,0.457,-43.762,-9.583,46.387
0.061,-0.910,0.412,-48.889,-11.841,41.199
0.078,-0.930,0.387,-49.255,-13.733,38.025
0.109,-0.956,0.392,-46.021,-13.550,40.100
0.117,-0.963,0.427,-41.931,-12.939,45.898
0.102,-0.945,0.485,-37.903,-11.353,53.223
0.109,-0.912,0.514,-35.767,-8.057,59.448
0.118,-0.882,0.502,-37.231,-5.859,62.561
0.116,-0.866,0.484,-41.565,-7.629,61.523
0.103,-0.870,0.469,-46.021,-11.841,56.946
0.082,-0.904,0.470,-48.523,-14.526,52.307
0.091,-0.938,0.480,-48.706,-13.550,49.683
0.109,-0.960,0.482,-48.767,-10.559,48.889
0.145,-0.946,0.492,-49.316,-7.874,50.781
0.197,-0.893,0.519,-49.377,-5.371,53.772
0.224,-0.863,0.512,-48.767,-3.723,56.824
0.226,-0.864,0.497,-49.500,-4.639,59.143
0.221,-0.852,0.501,-49.377,-7.324,59.143
0.195,-0.844,0.510,-49.133,-8.850,57.922
0.179,-0.831,0.515,-48.645,-8.240,57.617
0.202,-0.774,0.551,-46.997,-5.127,57.922
0.237,-0.714,0.572,-44.312,-0.488,57.678
0.269,-0.687,0.566,-42.969,2.502,57.373
0.289,-0.702,0.542,-42.969,0.427,57.190
0.277,-0.737,0.537,-42.175,-4.883,55.725
0.273,-0.784,0.552,-40.894,-9.521,52.917
0.293,-0.805,0.593,-40.955,-12.329,48.706
0.310,-0.818,0.633,-42.664,-14.038,46.265
0.337,-0.777,0.698,-44.434,-14.832,47.607
0.348,-0.734,0.718,-45.166,-12.634,51.331
0.340,-0.692,0.707,-46.021,-9.583,57.190
0.148,0.901,1.734,227.234,39.246,-141.663
0.161,0.928,1.903,235.962,46.265,-135.559
0.093,1.081,2.132,240.051,54.260,-119.873
0.013,1.328,2.288,237.976,64.758,-97.778
-0.150,1.619,2.182,223.999,72.449,-82.458
-0.437,1.884,1.785,205.078,67.017,-82.886
-0.786,1.899,1.155,189.514,52.979,-98.389
-1.153,1.561,0.556,190.430,44.373,-130.859
-1.148,0.853,-0.015,201.355,45.471,-176.941
-0.941,0.064,-0.550,196.594,40.283,-232.666
-0.780,-0.665,-1.019,179.443,11.902,-281.921
-0.669,-1.370,-1.469,161.560,-22.766,-293.945
-0.669,-1.874,-2.001,143.372,-42.053,-257.812
-0.816,-2.130,-2.622,141.663,-41.870,-190.002
-0.980,-2.304,-2.887,176.575,-26.306,-126.770
-1.064,-2.665,-2.684,227.478,3.723,-104.614
-1.082,-3.105,-2.182,265.137,36.560,-121.582
-0.919,-3.572,-1.542,271.057,63.354,-157.837
-0.476,-3.773,-0.857,246.826,89.050,-184.875
0.281,-3.588,-0.343,202.209,117.249,-181.702
1.080,-3.090,-0.223,139.099,136.841,-148.865
1.479,-2.478,-0.371,73.853,131.287,-95.032
1.438,-2.036,-0.504,29.419,99.182,-28.320
1.158,-1.786,-0.522,6.897,56.763,28.931
0.614,-1.613,-0.372,-5.920,15.015,61.401
-0.030,-1.462,-0.101,-12.268,-16.541,71.106
-0.440,-1.308,0.110,-19.653,-26.855,65.063
-0.563,-1.094,0.217,-31.128,-22.217,46.204
-0.459,-0.937,0.182,-43.091,-15.991,21.057
-0.313,-0.843,0.123,-52.490,-17.212,-1.282
-0.203,-0.807,0.091,-53.467,-21.912,-12.024
-0.145,-0.822,0.052,-45.959,-20.203,-6.592
-0.060,-0.841,0.077,-32.837,-10.925,7.874
-0.018,-0.908,0.110,-16.418,-6.348,24.292
0.013,-0.980,0.146,-7.446,-4.150,32.593
0.020,-1.069,0.193,-2.075,-4.517,27.100
0.009,-1.129,0.252,-5.676,-7.568,16.663
-0.003,-1.158,0.330,-13.672,-15.747,9.033
-0.044,-1.150,0.385,-22.034,-22.034,7.202
-0.075,-1.111,0.392,-29.236,-22.461,13.794
-0.090,-1.047,0.381,-31.860,-16.846,25.574
-0.093,-0.971,0.380,-28.381,-8.545,37.476
-0.085,-0.888,0.364,-23.071,-1.404,45.898
-0.062,-0.841,0.319,-18.616,2.136,47.363
-0.034,-0.835,0.306,-13.733,0.244,40.771
-0.016,-0.884,0.323,-8.423,-3.418,31.067
-0.020,-0.943,0.359,-3.601,-6.592,25.330
-0.060,-0.991,0.419,-0.793,-9.888,23.499
-0.100,-1.034,0.441,-1.648,-11.169,23.132
-0.119,-1.062,0.445,-3.784,-9.705,22.766
-0.108,-1.056,0.446,-5.676,-7.263,21.851
-0.089,-1.042,0.439,-8.484,-6.287,19.775
-0.073,-1.034,0.420,-12.817,-6.409,19.104
-0.060,-1.003,0.401,-15.137,-5.493,20.752
-0.040,-0.968,0.375,-15.259,-3.052,23.560
-0.020,-0.947,0.355,-14.404,-1.709,25.208
-0.022,-0.951,0.348,-14.404,-2.197,25.452
-0.044,-0.959,0.355,-14.465,-3.052,25.757
-0.033,-0.969,0.351,-13.672,-2.869,26.489
-0.023,-0.982,0.355,-14.282,-3.235,27.039
-0.027,-0.987,0.367,-17.212,-5.005,27.100
-0.016,-0.962,0.383,-20.142,-6.348,26.611
-0.012,-0.930,0.403,-22.278,-6.348,26.550
-0.012,-0.917,0.387,-24.353,-6.042,26.672
-0.011,-0.901,0.371,-25.513,-6.714,25.574
-0.030,-0.877,0.379,-24.353,-7.507,23.437
-0.035,-0.867,0.390,-22.522,-7.507,21.667
-0.037,-0.871,0.390,-20.264,-6.042,20.386
-0.040,-0.881,0.396,-16.235,-3.845,20.691
-0.029,-0.911,0.395,-13.062,-0.244,21.729
0.005,-0.931,0.400,-12.878,2.380,22.400
0.040,-0.956,0.409,-14.465,2.747,21.179
0.068,-1.011,0.418,-17.883,1.770,19.287
0.110,-1.072,0.428,-22.217,-0.305,21.057
0.101,-1.099,0.432,-26.001,-2.930,25.940
0.087,-1.093,0.418,-28.015,-4.333,33.630
0.078,-1.073,0.393,-27.466,-3.967,42.786
0.074,-1.047,0.363,-26.733,-2.380,51.025
0.080,-1.012,0.356,-26.001,-1.282,56.091
0.082,-1.001,0.366,-26.367,-1.038,56.274
0.101,-1.003,0.381,-30.396,-1.831,51.392
0.125,-1.012,0.374,-37.598,-5.432,43.091
0.142,-1.049,0.358,-44.800,-11.108,36.194
0.138,-1.076,0.365,-49.988,-17.639,34.973
0.105,-1.078,0.377,-52.185,-21.362,39.917
0.083,-1.066,0.381,-52.856,-20.203,49.561
0.064,-1.031,0.383,-53.284,-16.113,59.998
0.093,-0.954,0.417,-52.795,-11.169,67.566
0.108,-0.893,0.449,-51.270,-7.019,70.435
0.107,-0.890,0.448,-53.345,-6.226,69.763
0.112,-0.901,0.434,-58.350,-8.728,65.491
0.096,-0.914,0.417,-62.683,-12.695,58.594
0.092,-0.922,0.418,-63.599,-15.076,52.917
0.108,-0.899,0.447,-60.547,-14.526,50.781
0.130,-0.871,0.493,-55.908,-11.841,52.124
0.155,-0.835,0.525,-52.185,-8.972,55.786
0.172,-0.819,0.536,-49.805,-7.629,59.204
0.176,-0.836,0.527,-49.622,-9.033,60.181
0.176,-0.868,0.525,-50.537,-12.817,58.411
0.171,-0.896,0.560,-52.429,-16.724,54.443
0.170,-0.903,0.603,-53.711,-17.822,51.086
0.188,-0.928,0.599,-56.641,-15.503,51.270
0.190,-0.935,0.591,-61.340,-14.832,54.199
0.201,-0.908,0.596,-65.491,-15.747,56.030
0.233,-0.873,0.598,-67.505,-14.587,56.030
0.261,-0.829,0.598,-68.909,-12.817,56.519
0.268,-0.780,0.613,-66.711,-12.085,58.533
0.251,-0.752,0.629,-62.622,-11.230,63.171
0.241,-0.739,0.651,-58.105,-9.705,69.275
0.210,-0.715,0.673,-55.115,-8.667,73.547
0.180,-0.698,0.677,-54.810,-7.202,76.233
0.180,-0.666,0.702,-55.054,-5.371,75.378
0.213,-0.639,0.721,-55.176,-2.197,70.190
0.243,-0.618,0.718,-57.251,-1.038,63.660
0.280,-0.584,0.720,-59.143,-3.906,58.044
0.286,-0.579,0.722,-59.753,-8.972,53.772
0.268,-0.579,0.731,-59.998,-15.198,52.246
0.242,-0.559,0.747,-58.411,-19.409,51.331
0.240,-0.533,0.763,-55.969,-19.470,51.514
-0.337,1.256,1.598,45.471,15.808,-5.920
-0.484,1.538,1.786,61.462,21.606,-8.057
-0.680,1.825,1.988,77.698,34.546,-10.010
-0.865,2.077,2.119,95.642,54.382,-8.972
-0.976,2.329,2.146,114.075,80.139,-7.996
-1.055,2.537,2.002,128.967,104.736,-13.062
-1.156,2.720,1.758,140.320,121.216,-26.550
-1.291,2.916,1.448,151.062,126.404,-51.697
-1.445,3.071,1.051,166.443,121.887,-91.736
-1.488,2.906,0.547,198.669,117.126,-145.203
-1.255,2.262,-0.028,242.493,113.708,-207.764
-0.878,1.148,-0.568,281.189,97.595,-266.968
-0.441,-0.098,-0.952,302.124,65.247,-300.415
-0.070,-1.147,-1.211,296.387,22.217,-304.932
-0.158,-1.603,-1.331,267.395,-21.851,-293.518
-0.477,-1.834,-1.594,242.065,-44.556,-272.949
-0.613,-2.048,-2.031,250.610,-25.818,-245.117
-0.677,-2.372,-2.297,291.809,15.625,-219.055
-0.663,-2.884,-2.219,338.257,39.673,-210.999
-0.643,-3.408,-1.858,353.516,34.058,-236.816
-0.541,-3.927,-1.317,336.548,13.367,-286.316
-0.424,-4.000,-0.529,304.993,0.854,-319.153
-0.044,-4.000,0.163,261.658,27.466,-300.659
0.540,-3.772,0.428,205.811,93.750,-217.163
1.224,-3.060,0.197,141.968,166.931,-90.332
1.612,-2.304,-0.094,86.060,198.120,24.963
1.659,-1.666,-0.337,36.072,171.387,86.487
1.265,-1.190,-0.441,-14.954,98.511,88.501
0.706,-0.898,-0.405,-47.424,10.010,54.993
0.095,-0.876,-0.183,-49.927,-53.528,14.832
-0.278,-0.981,0.145,-30.945,-76.294,-9.094
-0.455,-1.062,0.388,-16.785,-66.895,-14.099
-0.469,-1.072,0.456,-15.930,-46.387,-7.446
-0.433,-0.977,0.394,-23.437,-26.917,3.662
-0.391,-0.834,0.324,-28.687,-15.442,12.695
-0.275,-0.712,0.287,-26.917,-7.629,16.541
-0.136,-0.664,0.233,-22.949,-2.869,13.550
-0.047,-0.687,0.214,-15.625,-5.066,7.507
0.077,-0.786,0.248,-6.897,-5.310,1.099
0.080,-0.937,0.339,0.488,-14.160,-3.235
0.065,-1.062,0.427,1.465,-24.597,0.061
-0.034,-1.105,0.514,-0.366,-21.606,7.935
-0.114,-1.009,0.581,-1.709,-8.423,22.339
-0.137,-0.858,0.547,-5.188,4.089,38.940
-0.138,-0.704,0.493,-8.789,11.230,46.387
-0.101,-0.590,0.446,-7.996,13.367,41.443
-0.055,-0.590,0.400,-3.723,9.460,27.466
-0.018,-0.682,0.437,5.798,0.122,9.338
0.007,-0.818,0.514,15.015,-6.836,-4.395
0.010,-0.950,0.582,18.982,-10.193,-8.911
0.004,-1.018,0.639,19.897,-10.254,-5.798
-0.017,-1.062,0.662,19.165,-6.653,2.991
-0.051,-1.068,0.669,15.137,-1.709,14.893
-0.093,-1.021,0.672,8.179,1.770,23.682
-0.083,-0.981,0.646,0.793,3.906,24.231
-0.037,-0.964,0.606,-4.944,4.822,19.958
0.018,-0.961,0.581,-8.667,3.967,15.015
0.064,-0.965,0.555,-10.742,3.479,12.512
0.103,-0.980,0.521,-10.376,3.601,14.038
0.119,-0.977,0.527,-7.935,2.563,18.250
0.080,-0.951,0.545,-6.592,0.732,21.729
0.026,-0.917,0.551,-7.019,-0.671,24.231
-0.025,-0.892,0.539,-8.240,-0.610,26.428
-0.065,-0.867,0.533,-8.606,0.305,28.259
-0.074,-0.845,0.539,-7.935,1.343,27.710
-0.067,-0.838,0.534,-8.667,2.380,24.719
-0.050,-0.851,0.517,-9.399,2.686,21.301
-0.023,-0.878,0.512,-8.911,3.540,18.250
0.018,-0.915,0.514,-8.118,4.639,16.357
0.044,-0.944,0.525,-8.728,4.333,15.137
0.056,-0.968,0.536,-10.010,2.441,14.648
0.067,-0.989,0.546,-12.146,1.343,16.052
0.065,-1.000,0.545,-15.137,1.648,19.470
0.077,-0.992,0.538,-18.372,2.747,22.949
0.095,-0.977,0.522,-20.386,3.235,25.513
0.125,-0.978,0.516,-22.034,2.808,27.893
0.138,-0.980,0.520,-25.146,0.854,29.358
0.152,-0.976,0.516,-27.893,-0.977,30.518
0.167,-0.994,0.507,-29.602,-1.465,32.471
0.162,-1.012,0.500,-30.212,-1.587,35.828
0.162,-1.011,0.504,-29.541,-2.075,39.001
0.159,-1.010,0.505,-30.334,-2.380,41.321
0.149,-0.993,0.514,-32.349,-3.662,43.762
0.134,-0.962,0.515,-34.607,-4.639,46.021
0.118,-0.912,0.520,-37.170,-5.920,47.729
0.099,-0.862,0.528,-40.039,-8.240,48.035
0.077,-0.813,0.536,-42.664,-10.559,45.715
0.055,-0.794,0.537,-43.762,-12.024,42.358
0.050,-0.778,0.546,-42.786,-12.695,38.208
0.057,-0.763,0.552,-40.100,-12.451,33.264
0.069,-0.768,0.551,-37.048,-11.658,28.809
0.097,-0.787,0.563,-33.691,-10.559,25.818
0.117,-0.796,0.587,-30.701,-9.705,24.353
0.130,-0.820,0.600,-29.907,-8.789,23.437
0.179,-0.872,0.595,-31.250,-8.606,22.888
0.186,-0.892,0.607,-35.034,-11.658,24.963
0.149,-0.894,0.630,-40.344,-16.357,30.518
0.116,-0.862,0.676,-44.556,-17.395,37.292
0.093,-0.811,0.713,-45.898,-13.428,42.358
0.081,-0.768,0.713,-47.424,-7.629,43.945
0.090,-0.739,0.680,-49.194,-4.089,41.870
0.114,-0.732,0.643,-50.171,-4.028,36.316
0.139,-0.738,0.614,-49.194,-6.653,29.053
0.170,-0.763,0.608,-46.814,-10.132,22.827
0.193,-0.803,0.607,-45.227,-12.573,21.057
0.218,-0.809,0.627,-45.105,-13.489,24.719
0.241,-0.781,0.669,-44.800,-12.329,31.677
0.230,-0.754,0.686,-46.631,-10.376,39.185
0.215,-0.738,0.670,-50.354,-8.728,43.518
0.203,-0.720,0.647,-53.101,-7.874,43.701
0.191,-0.706,0.632,-54.199,-7.874,42.236
0.178,-0.696,0.628,-53.223,-8.606,39.673
0.166,-0.694,0.628,-50.964,-9.216,36.987
0.170,-0.697,0.630,-48.218,-8.789,35.828
0.193,-0.670,0.655,-45.410,-6.775,36.560
0.239,-0.671,0.672,-42.236,-4.639,38.269
0.279,-0.677,0.689,-41.138,-4.395,40.833
0.289,-0.675,0.703,-43.518,-6.958,43.762
0.249,-0.671,0.697,-48.462,-11.658,46.570
0.146,1.232,1.638,138.428,49.255,-72.327
0.181,1.354,1.857,156.433,49.133,-73.425
0.141,1.529,2.145,168.701,50.903,-66.040
0.067,1.742,2.407,170.349,50.354,-50.293
-0.051,1.941,2.543,163.879,44.678,-33.752
-0.183,2.142,2.556,155.945,39.185,-21.301
-0.339,2.368,2.449,149.109,35.522,-14.832
-0.588,2.496,2.203,146.362,31.738,-16.663
-0.897,2.683,1.918,149.475,27.466,-26.672
-1.292,2.778,1.479,158.569,29.297,-42.969
-1.558,2.545,0.857,176.758,36.865,-66.223
-1.658,1.957,0.158,200.684,40.710,-106.079
-1.484,1.083,-0.615,217.712,27.527,-162.170
-1.216,0.210,-1.352,227.722,-5.981,-218.079
-1.187,-0.338,-1.979,236.023,-44.495,-254.700
-1.267,-0.842,-2.661,255.432,-62.256,-266.724
-1.357,-1.472,-3.294,289.856,-47.974,-263.000
-1.461,-2.529,-3.674,342.285,-25.940,-264.038
-1.427,-3.859,-3.537,396.790,-14.038,-288.025
-1.177,-4.000,-2.782,434.509,-11.475,-342.224
-0.844,-4.000,-1.530,433.838,0.122,-396.606
-0.179,-4.000,-0.068,392.700,41.626,-395.264
0.781,-4.000,0.837,315.613,134.277,-293.701
1.877,-4.000,0.725,211.792,254.272,-107.239
2.706,-3.286,0.071,99.854,328.491,68.787
2.946,-1.794,-0.605,0.427,290.161,163.635
2.189,-0.728,-0.934,-78.796,152.771,176.514
1.068,-0.396,-0.890,-117.371,-8.423,133.301
-0.183,-0.439,-0.362,-108.337,-123.230,70.801
-1.149,-0.654,0.313,-77.087,-163.818,15.808
-1.496,-0.716,0.712,-55.725,-135.498,-17.395
-1.416,-0.695,0.667,-56.274,-79.468,-24.902
-1.116,-0.601,0.520,-55.359,-28.198,-7.324
-0.786,-0.471,0.448,-42.908,12.573,17.761
-0.359,-0.414,0.345,-30.396,40.222,33.997
0.109,-0.451,0.210,-22.766,47.119,33.203
0.433,-0.578,0.113,-20.203,32.043,17.212
0.515,-0.749,0.141,-17.212,3.418,-2.258
0.395,-0.932,0.260,-11.414,-23.376,-13.062
0.207,-1.013,0.429,-7.507,-39.063,-10.742
-0.071,-0.989,0.507,-9.033,-39.490,-0.549
-0.173,-0.836,0.552,-12.207,-23.193,13.550
-0.140,-0.672,0.501,-13.367,-11.414,27.405
-0.142,-0.490,0.437,-16.357,-0.305,34.546
-0.079,-0.421,0.367,-10.376,9.521,30.701
-0.017,-0.460,0.373,0.977,11.230,21.301
0.003,-0.559,0.466,12.939,2.258,7.874
0.016,-0.728,0.542,21.057,-7.446,-6.714
0.013,-0.885,0.622,25.696,-12.207,-14.648
0.039,-1.002,0.684,27.161,-10.315,-12.634
0.051,-1.068,0.722,24.597,-5.615,-2.441
0.026,-1.063,0.736,19.592,0.671,11.780
0.019,-1.030,0.696,13.367,10.254,25.391
0.083,-0.985,0.606,5.554,17.456,31.067
0.126,-0.935,0.548,0.732,16.235,27.893
0.168,-0.899,0.518,0.122,11.475,21.729
0.187,-0.889,0.490,0.610,6.287,17.090
0.167,-0.903,0.488,2.258,-0.671,12.878
0.114,-0.925,0.530,4.578,-7.141,10.376
0.046,-0.945,0.564,5.310,-9.094,11.658
-0.012,-0.957,0.577,4.456,-7.751,16.357
-0.044,-0.937,0.589,3.540,-5.066,21.423
-0.052,-0.905,0.574,0.732,-1.526,24.780
-0.043,-0.867,0.550,-2.747,0.000,24.597
-0.005,-0.845,0.535,-4.456,0.366,20.325
0.020,-0.849,0.529,-4.272,-0.244,15.198
0.038,-0.875,0.537,-2.502,-0.488,12.024
0.034,-0.917,0.557,0.183,0.122,12.268
0.023,-0.946,0.585,2.869,1.648,15.564
0.021,-0.962,0.611,4.150,3.845,20.081
0.026,-0.958,0.616,2.380,6.226,23.682
0.051,-0.938,0.598,-0.366,7.996,25.452
0.076,-0.918,0.590,-2.136,8.179,25.085
0.088,-0.905,0.580,-3.784,7.019,23.315
0.094,-0.912,0.564,-5.188,4.822,21.057
0.106,-0.936,0.554,-5.432,3.174,19.775
0.123,-0.959,0.551,-5.676,2.869,20.752
0.146,-0.968,0.542,-7.141,3.418,23.193
0.155,-0.954,0.531,-9.094,3.601,25.757
0.135,-0.914,0.526,-10.803,3.662,28.625
0.122,-0.878,0.510,-12.939,2.686,30.457
0.110,-0.859,0.501,-14.587,0.488,30.823
0.084,-0.834,0.502,-15.076,-1.770,30.640
0.076,-0.843,0.492,-14.954,-3.052,30.212
0.086,-0.858,0.492,-14.587,-3.357,29.175
0.108,-0.844,0.505,-14.160,-3.601,27.893
0.128,-0.831,0.507,-14.465,-2.991,27.100
0.147,-0.839,0.502,-14.038,-2.625,27.649
0.165,-0.866,0.503,-12.146,-2.869,28.259
0.193,-0.921,0.500,-10.681,-4.028,28.992
0.190,-0.972,0.513,-11.414,-7.263,30.823
0.172,-1.013,0.548,-13.733,-9.949,33.752
0.169,-1.049,0.561,-17.883,-9.521,36.926
0.151,-1.036,0.595,-23.804,-8.545,40.344
0.141,-0.980,0.627,-29.236,-7.812,42.236
0.140,-0.930,0.611,-34.912,-7.507,41.870
0.149,-0.902,0.569,-40.466,-8.972,39.307
0.169,-0.880,0.546,-42.480,-11.902,34.668
0.167,-0.889,0.540,-42.053,-15.076,30.823
0.161,-0.923,0.552,-41.016,-17.517,30.640
0.170,-0.948,0.582,-40.405,-18.433,34.180
0.166,-0.943,0.618,-40.771,-17.944,40.649
0.124,-0.886,0.657,-43.152,-17.090,47.485
0.076,-0.818,0.671,-46.631,-15.320,51.697
0.043,-0.768,0.657,-50.537,-14.587,50.293
0.019,-0.736,0.641,-52.734,-16.235,43.335
0.008,-0.722,0.634,-51.697,-18.921,33.813
0.014,-0.743,0.632,-48.584,-19.958,25.696
0.043,-0.760,0.656,-44.617,-17.578,20.813
0.100,-0.766,0.691,-39.063,-11.841,18.127
0.144,-0.799,0.690,-36.255,-6.104,19.592
0.185,-0.828,0.675,-36.560,-3.784,24.292
0.205,-0.834,0.671,-38.757,-3.662,29.663
0.198,-0.836,0.663,-41.992,-4.883,35.767
0.165,-0.811,0.663,-43.762,-6.104,42.419
0.142,-0.767,0.682,-44.373,-5.859,47.852
0.135,-0.699,0.721,-45.166,-4.456,50.537
0.147,-0.635,0.732,-46.265,-2.441,48.706
0.163,-0.597,0.709,-48.523,-2.869,43.518